Symbol: Cl
Atomic Number: 17
Atomic Mass: 35.452700
Start Spectral Index: 10
1 221
2 292
3 192
4 73
5 27
6 1
7 28
8 5
9 3
10 11
End Spectral Index:
Order of Magnitude: 0.000001
Start Spectral Lines:
8 0.004949
8 0.005007
8 0.005070
8 0.005867
8 0.005919
9 0.018071
9 0.018527
7 0.019612
7 0.019639
10 0.020538
7 0.020783
7 0.020786
7 0.020786
10 0.021006
7 0.024083
7 0.024087
7 0.024088
5 0.028733
7 0.029326
7 0.029490
4 0.031962
4 0.033184
7 0.034024
7 0.034031
7 0.034033
5 0.037378
5 0.039015
5 0.039243
3 0.040627
3 0.041137
3 0.041181
4 0.043783
7 0.045514
7 0.045530
7 0.045657
4 0.046486
4 0.048617
4 0.053473
4 0.053567
4 0.053615
5 0.053653
5 0.053701
5 0.053746
4 0.053761
5 0.053803
4 0.053812
5 0.053868
5 0.054223
5 0.054230
5 0.054287
5 0.054511
5 0.054633
5 0.054763
4 0.054922
4 0.055002
4 0.055202
4 0.055330
4 0.055462
3 0.055623
3 0.055661
3 0.055712
2 0.055930
3 0.056153
3 0.056168
3 0.056174
2 0.057190
2 0.057441
2 0.058624
7 0.059821
4 0.060150
4 0.060459
7 0.060478
7 0.060506
3 0.060635
4 0.060890
4 0.061207
2 0.061806
2 0.061998
2 0.062030
3 0.062128
2 0.062674
5 0.063319
5 0.063532
2 0.063588
2 0.063663
2 0.065089
4 0.065370
2 0.065981
2 0.066184
2 0.066307
3 0.067038
6 0.067138
3 0.067313
5 0.068192
2 0.068205
5 0.068317
2 0.068766
5 0.068893
2 0.069359
5 0.071555
5 0.071619
7 0.072213
2 0.072527
7 0.072573
2 0.072895
10 0.073961
4 0.074521
2 0.077756
2 0.078758
2 0.078874
2 0.079334
7 0.080064
10 0.080412
7 0.081296
4 0.083143
4 0.083484
4 0.083497
2 0.083930
2 0.083960
4 0.084081
4 0.084093
2 0.084141
2 0.085169
4 0.086530
5 0.088313
2 0.088803
2 0.089355
5 0.089434
5 0.089491
5 0.091450
3 0.093628
2 0.096150
1 0.096992
4 0.097322
4 0.097756
4 0.097790
1 0.097828
4 0.098495
4 0.098575
4 0.098610
1 0.099837
1 0.099843
1 0.100235
3 0.100528
3 0.100877
1 0.101366
3 0.101502
1 0.102555
2 0.106383
2 0.106794
2 0.107104
2 0.107177
2 0.107523
2 0.107908
1 0.108467
1 0.108517
1 0.108530
1 0.108806
1 0.109027
1 0.109098
1 0.109244
1 0.109477
1 0.109515
1 0.109566
1 0.109580
1 0.109681
1 0.109737
1 0.109807
1 0.109952
1 0.110753
2 0.113921
1 0.116715
1 0.117929
1 0.118875
1 0.118877
1 0.120135
1 0.133573
1 0.134724
1 0.135166
1 0.136345
1 0.137312
1 0.137953
1 0.138969
1 0.138996
1 0.139653
10 0.141997
2 0.144147
4 0.150038
4 0.151060
2 0.152857
4 0.152869
4 0.153224
4 0.153441
4 0.153721
4 0.153930
2 0.154294
10 0.154364
10 0.154364
4 0.154519
4 0.154913
2 0.155814
2 0.156505
4 0.160002
4 0.161738
4 0.162293
4 0.162550
4 0.163225
4 0.163877
4 0.165032
7 0.166820
7 0.168643
7 0.168756
3 0.179793
3 0.180842
3 0.181021
3 0.181762
3 0.182246
3 0.182451
3 0.182837
3 0.183204
3 0.183316
10 0.185410
10 0.185410
2 0.185749
3 0.189773
3 0.189887
3 0.190157
3 0.191286
3 0.191402
3 0.191646
3 0.191780
3 0.192024
3 0.198361
2 0.199737
3 0.200749
2 0.203277
2 0.208925
2 0.209212
7 0.217950
7 0.221270
3 0.223183
3 0.225369
3 0.225632
3 0.226960
3 0.227902
3 0.228463
3 0.229208
3 0.229245
3 0.229250
3 0.229925
3 0.232421
3 0.233717
3 0.234132
3 0.234838
3 0.236038
3 0.236065
3 0.237107
3 0.237333
3 0.238011
3 0.238021
3 0.238799
3 0.239485
3 0.240406
3 0.240984
3 0.241715
3 0.241994
3 0.242317
2 0.242852
2 0.243088
2 0.243091
2 0.243481
2 0.243486
3 0.243525
3 0.243661
3 0.243691
3 0.244035
3 0.244065
3 0.244318
3 0.244788
3 0.244933
3 0.246914
3 0.246993
3 0.247153
3 0.247806
3 0.248248
3 0.248500
3 0.248580
3 0.248764
2 0.249675
2 0.249928
2 0.250349
3 0.250493
3 0.251203
3 0.252019
3 0.253250
3 0.253322
3 0.253457
3 0.254151
3 0.254333
2 0.254476
2 0.254557
2 0.254562
2 0.254772
2 0.254854
2 0.255065
3 0.256322
2 0.256561
3 0.257786
3 0.258146
3 0.260187
2 0.260409
3 0.260431
3 0.261019
3 0.261768
3 0.261949
3 0.262063
3 0.262549
3 0.263345
3 0.263395
3 0.263978
3 0.264954
3 0.265192
2 0.265951
3 0.266233
3 0.266303
3 0.266396
3 0.266631
2 0.266725
2 0.266814
2 0.266819
3 0.267034
3 0.267127
3 0.267643
2 0.267775
3 0.268319
2 0.268884
3 0.269185
3 0.269222
3 0.270041
4 0.270216
3 0.271080
3 0.271117
4 0.272483
4 0.275204
4 0.277146
4 0.278329
4 0.283623
2 0.290707
2 0.291290
3 0.296641
3 0.297149
3 0.299263
2 0.299752
2 0.300694
2 0.302379
2 0.305885
4 0.306402
2 0.307221
4 0.307225
4 0.307757
2 0.309309
3 0.310534
4 0.310693
4 0.311956
2 0.312463
3 0.314023
4 0.316877
2 0.317585
2 0.317623
2 0.318217
2 0.318255
2 0.318834
2 0.318992
3 0.319229
4 0.320453
4 0.321468
2 0.323271
3 0.324532
3 0.326013
3 0.328430
3 0.329072
3 0.330186
2 0.330738
2 0.330875
2 0.330883
2 0.331638
2 0.331777
3 0.332148
3 0.332996
2 0.333006
3 0.333694
3 0.334122
3 0.334135
3 0.334376
3 0.334376
3 0.335414
3 0.335414
2 0.335431
3 0.338712
3 0.338842
3 0.339382
3 0.339438
3 0.340105
2 0.350641
2 0.350989
2 0.351036
2 0.351416
2 0.351463
2 0.352310
2 0.352709
3 0.353100
3 0.355429
3 0.356166
2 0.356897
2 0.357695
2 0.358706
2 0.358871
2 0.359678
2 0.359724
2 0.360139
3 0.360305
2 0.360466
2 0.360543
2 0.360588
2 0.360657
2 0.361075
3 0.361390
2 0.361605
2 0.361986
3 0.362374
2 0.364016
2 0.364903
3 0.365801
3 0.367134
2 0.367890
3 0.368303
3 0.368434
3 0.368908
3 0.370652
3 0.370831
3 0.372145
3 0.372676
1 0.372760
3 0.374263
3 0.374986
2 0.375103
3 0.376009
3 0.378042
2 0.379984
2 0.380626
2 0.381054
2 0.381109
2 0.381944
2 0.382128
3 0.382543
2 0.382868
2 0.383081
2 0.383444
2 0.384646
2 0.384674
2 0.384688
3 0.385181
2 0.385208
2 0.385246
2 0.385274
2 0.385583
2 0.386192
2 0.386208
2 0.386247
2 0.386253
2 0.386297
2 0.386517
2 0.386561
2 0.386967
2 0.388489
2 0.390387
2 0.390673
2 0.391498
2 0.391774
2 0.391863
3 0.392698
2 0.392893
2 0.392971
1 0.394594
2 0.395529
2 0.399128
3 0.399256
2 0.399640
2 0.400193
3 0.401956
2 0.402116
2 0.402676
2 0.403761
3 0.406015
3 0.408799
3 0.410532
1 0.410594
3 0.410796
2 0.412510
3 0.412534
2 0.413132
2 0.413197
2 0.413366
2 0.413481
2 0.413545
2 0.414822
1 0.414843
2 0.415516
2 0.418676
2 0.418998
2 0.419279
2 0.419626
2 0.420571
2 0.420919
1 0.421086
2 0.421493
2 0.422294
2 0.422610
1 0.422761
2 0.422854
2 0.423473
2 0.423515
2 0.423660
2 0.423665
2 0.424244
2 0.425138
2 0.425458
2 0.425868
2 0.426238
2 0.426443
1 0.426578
2 0.427177
2 0.427768
1 0.428167
2 0.429291
2 0.430525
2 0.430863
1 0.432455
2 0.433399
2 0.433743
1 0.433908
2 0.434485
1 0.436450
1 0.437073
3 0.437214
1 0.437277
2 0.437416
1 0.438113
1 0.438879
1 0.439098
1 0.439163
2 0.440037
1 0.440376
1 0.440426
1 0.443974
1 0.444707
1 0.444739
1 0.447062
1 0.447656
2 0.449117
1 0.449229
1 0.452746
1 0.454676
2 0.457063
2 0.457325
2 0.457340
1 0.457946
1 0.458177
3 0.459224
1 0.460227
3 0.460554
3 0.460897
3 0.460950
1 0.462523
1 0.465534
1 0.466251
1 0.467584
1 0.467907
1 0.469284
3 0.470446
1 0.472258
2 0.474068
1 0.474205
2 0.475691
2 0.476656
2 0.476998
2 0.477241
2 0.477300
2 0.478025
2 0.478266
2 0.478313
2 0.478670
2 0.479589
2 0.479704
1 0.479827
2 0.479965
2 0.481141
2 0.481295
1 0.481978
1 0.482005
2 0.482082
2 0.482110
2 0.482231
2 0.482705
2 0.483805
1 0.485406
2 0.485840
2 0.486322
3 0.486511
2 0.487905
2 0.489306
2 0.489815
2 0.490028
2 0.490615
2 0.490855
2 0.491565
2 0.491910
2 0.492353
2 0.492562
2 0.492625
2 0.492654
2 0.493310
2 0.493830
2 0.497146
3 0.497303
1 0.497801
2 0.499687
2 0.506954
2 0.507968
2 0.509974
2 0.510072
1 0.510121
2 0.510449
2 0.510548
2 0.511478
1 0.514177
2 0.521919
2 0.521939
2 0.522281
4 0.532476
2 0.539362
2 0.542475
2 0.542502
2 0.542586
2 0.544488
2 0.544572
2 0.544649
2 0.545779
2 0.545855
2 0.545897
3 0.551924
3 0.551924
1 0.553370
3 0.553941
3 0.553941
2 0.557031
1 0.579791
1 0.580152
1 0.585837
1 0.595023
1 0.602148
1 0.608429
2 0.609637
1 0.611612
1 0.614194
2 0.616355
1 0.619647
1 0.640043
2 0.640117
1 0.643661
1 0.653323
2 0.666351
1 0.668027
2 0.668787
2 0.671526
2 0.676125
1 0.684218
2 0.684377
2 0.685206
2 0.692392
2 0.693240
1 0.693482
2 0.695411
1 0.698381
1 0.708877
1 0.725862
4 0.726340
9 0.733700
1 0.741616
1 0.746442
1 0.749153
1 0.749418
4 0.753261
4 0.753261
1 0.754915
1 0.767453
1 0.770495
1 0.771971
1 0.774710
1 0.777130
1 0.777323
1 0.782351
1 0.783290
1 0.788039
1 0.789551
1 0.790148
1 0.791726
1 0.792683
1 0.793607
1 0.793719
1 0.795471
1 0.797691
1 0.797916
1 0.798280
1 0.800005
1 0.801781
1 0.802554
4 0.804784
4 0.804784
1 0.805328
1 0.808673
1 0.808778
1 0.808889
1 0.808995
1 0.809690
1 0.819667
1 0.820138
1 0.820246
1 0.820604
1 0.821430
1 0.822271
1 0.822400
1 0.833560
2 0.835538
2 0.836300
2 0.836414
1 0.837824
2 0.838497
2 0.838549
2 0.839433
1 0.840851
1 0.843057
3 0.843598
3 0.843598
1 0.846967
3 0.848319
3 0.848319
3 0.850235
3 0.850235
3 0.855031
1 0.855279
1 0.857760
1 0.858038
2 0.858106
2 0.858106
1 0.858834
1 0.863091
1 0.864408
1 0.868866
1 0.891537
1 0.895052
1 0.904146
1 0.904791
1 0.907215
1 0.907566
1 0.912365
2 0.912610
2 0.912610
1 0.919425
1 0.920012
10 0.922000
10 0.922000
1 0.929141
2 0.938340
1 0.939644
1 0.945469
1 0.948957
1 0.958743
1 0.959485
1 0.963515
1 0.970510
1 0.974710
1 0.980975
1 0.987868
1 1.039540
2 1.043569
2 1.050950
2 1.051200
2 1.051534
2 1.051705
2 1.080443
2 1.088840
2 1.095871
1 1.112610
1 1.139574
1 1.141281
1 1.143946
1 1.172377
1 1.187001
1 1.202500
1 1.324740
1 1.329960
1 1.335040
1 1.382550
1 1.437360
1 1.493580
1 1.511210
1 1.546930
1 1.547180
1 1.552450
1 1.573440
1 1.582270
1 1.587400
1 1.588760
1 1.593330
1 1.596440
1 1.597490
1 1.608200
1 1.620290
1 1.937560
1 1.976070
1 1.977220
1 2.020490
1 2.037570
1 2.447670
1 3.961450
1 3.962610
1 3.972680
1 3.975480
1 3.976170
1 3.988620
1 3.989190
1 3.999660
1 4.009640
1 4.010040
1 4.018200
1 4.032130
1 4.034640
1 4.054330
5 6.709200
4 7.452100
2 10.035400
1 11.333352
4 11.766100
4 11.766100
2 14.367800
2 14.367800
4 20.325001
2 33.281200
3 108.072998
3 108.072998
3 151.584000
3 151.584000
End Spectral Lines:
