Symbol: Rh
Atomic Number: 45
Atomic Mass: 102.906000
Start Spectral Index: 3
1 463
2 31
3 73
End Spectral Index:
Order of Magnitude: 0.000001
Start Spectral Lines:
3 0.074628
3 0.075954
3 0.081344
3 0.082601
3 0.084363
3 0.084908
3 0.085270
3 0.085477
3 0.085989
3 0.086134
3 0.086378
3 0.086522
3 0.087040
3 0.088251
3 0.092575
3 0.093728
3 0.097612
3 0.099162
3 0.099248
3 0.100960
3 0.101222
3 0.101517
3 0.105000
3 0.105897
3 0.107387
3 0.110058
3 0.111379
3 0.176843
3 0.178424
3 0.178494
3 0.179650
3 0.181603
3 0.183205
3 0.185985
3 0.187470
3 0.188066
3 0.188491
3 0.188736
3 0.188862
3 0.190132
3 0.191016
3 0.191937
3 0.192707
3 0.193179
3 0.195425
3 0.196516
3 0.199426
3 0.200579
3 0.201436
3 0.201812
3 0.202918
3 0.203737
3 0.203826
3 0.204084
3 0.204933
3 0.206477
3 0.207750
3 0.211920
3 0.211930
3 0.214011
3 0.215291
3 0.215885
3 0.216387
3 0.216801
3 0.220769
3 0.223135
3 0.225154
2 0.227691
1 0.228928
1 0.231053
1 0.231907
1 0.231981
1 0.232244
1 0.232329
1 0.232718
1 0.232935
2 0.233549
1 0.234613
1 0.235319
1 0.235990
1 0.236264
1 0.236906
3 0.237557
1 0.238362
1 0.238413
1 0.238538
2 0.238687
1 0.240861
1 0.240892
1 0.241098
2 0.241657
1 0.242049
2 0.242092
2 0.242172
2 0.242785
1 0.242842
1 0.243026
2 0.243259
1 0.243340
1 0.243782
1 0.243864
1 0.244108
1 0.244501
1 0.244958
1 0.244978
1 0.245130
2 0.245644
2 0.245964
2 0.246178
1 0.246436
1 0.247114
3 0.247140
1 0.247222
1 0.247326
1 0.247384
2 0.247639
2 0.247829
1 0.248279
1 0.248408
1 0.248822
2 0.249152
1 0.249305
1 0.249977
1 0.250321
2 0.250459
2 0.250504
2 0.250585
1 0.250642
1 0.251046
2 0.251142
2 0.251179
2 0.251412
1 0.251651
2 0.252129
1 0.252675
1 0.253250
2 0.253780
1 0.254646
1 0.255613
1 0.255939
1 0.256656
1 0.256681
2 0.256769
1 0.257652
2 0.258806
2 0.260410
2 0.260722
1 0.262336
1 0.262666
1 0.263120
1 0.263578
2 0.263953
1 0.264379
1 0.264807
1 0.265345
1 0.265980
1 0.267185
1 0.267691
1 0.268108
1 0.268143
1 0.268258
1 0.269511
1 0.270453
2 0.270643
1 0.270803
1 0.271521
2 0.271611
1 0.271832
1 0.271935
1 0.272095
1 0.272133
1 0.272975
1 0.273757
1 0.274256
1 0.276855
1 0.277233
1 0.277888
1 0.278036
1 0.278385
1 0.279198
1 0.279745
1 0.282726
1 0.282751
1 0.282814
1 0.283495
1 0.283627
1 0.283752
1 0.285700
1 0.286152
1 0.286160
1 0.286378
1 0.286524
1 0.287219
1 0.287446
1 0.287950
1 0.288161
1 0.288322
1 0.288682
1 0.288996
1 0.289069
1 0.290081
1 0.290566
1 0.290806
2 0.291102
1 0.291347
1 0.291627
1 0.292396
1 0.292488
1 0.292997
1 0.293280
1 0.295627
1 0.296953
1 0.297490
1 0.297855
1 0.298707
1 0.298786
1 0.298832
1 0.300534
3 0.300731
1 0.302042
1 0.302479
1 0.302931
1 0.304666
1 0.304765
3 0.305333
1 0.305878
1 0.306819
1 0.308486
1 0.308832
1 0.311581
1 0.312267
1 0.312461
1 0.313170
1 0.313862
1 0.315227
1 0.315351
1 0.315669
1 0.318065
1 0.318651
1 0.318997
1 0.319211
1 0.319805
1 0.321525
1 0.323859
1 0.326408
1 0.327255
1 0.328150
1 0.328265
1 0.328452
1 0.329009
1 0.329059
1 0.329523
1 0.329767
1 0.330141
3 0.331164
1 0.332405
1 0.333205
1 0.333220
1 0.333950
1 0.334386
1 0.334516
1 0.336087
1 0.336177
1 0.336315
1 0.336935
1 0.337065
1 0.337322
1 0.337811
1 0.337868
1 0.338675
1 0.339779
1 0.340068
1 0.340753
1 0.341325
1 0.342114
1 0.342220
1 0.342536
1 0.343587
1 0.344152
1 0.344362
1 0.344873
1 0.344957
1 0.345128
1 0.345214
1 0.345621
1 0.345641
1 0.345806
1 0.345892
1 0.346303
1 0.347061
1 0.347165
1 0.347324
1 0.347577
1 0.347991
1 0.348504
1 0.349207
1 0.349544
1 0.349973
1 0.350352
1 0.350641
1 0.350832
1 0.351278
1 0.351410
1 0.352055
1 0.352903
1 0.353915
1 0.353927
1 0.354292
1 0.354496
1 0.355055
1 0.356515
1 0.357120
1 0.358412
1 0.358455
1 0.359722
1 0.359818
1 0.360689
1 0.361350
1 0.361581
1 0.362149
1 0.362762
1 0.362883
1 0.364055
1 0.365591
1 0.365903
1 0.366290
1 0.366726
1 0.366795
1 0.367581
1 0.368209
1 0.369175
1 0.369341
1 0.369600
1 0.369657
1 0.369931
1 0.369965
1 0.370196
1 0.371408
1 0.371449
1 0.371589
1 0.372600
1 0.373634
1 0.373833
1 0.374523
1 0.374929
1 0.375519
1 0.375534
1 0.375665
1 0.376147
1 0.376615
1 0.377104
1 0.377679
1 0.377920
1 0.378955
1 0.379326
1 0.379430
1 0.380039
1 0.380700
1 0.380784
1 0.381058
1 0.381353
1 0.381609
1 0.381755
1 0.381927
1 0.382334
1 0.382957
1 0.383498
1 0.383584
3 0.385407
1 0.385761
1 0.387111
1 0.387349
1 0.387844
1 0.388944
1 0.390533
1 0.391394
1 0.391462
1 0.392330
1 0.393534
1 0.393609
1 0.393695
1 0.394384
1 0.395936
1 0.395998
2 0.396566
1 0.397643
1 0.398553
1 0.399674
1 0.399728
1 0.402428
1 0.404955
1 0.405018
1 0.405458
1 0.405749
1 0.407872
1 0.408393
1 0.408543
1 0.408894
1 0.408965
1 0.409868
1 0.410865
1 0.411749
1 0.412084
1 0.412284
1 0.413003
1 0.413644
1 0.415554
1 0.419768
1 0.420781
1 0.421233
1 0.423139
1 0.424564
1 0.427463
1 0.427980
1 0.428992
1 0.429798
1 0.434366
1 0.437427
1 0.437603
1 0.438115
1 0.443456
1 0.449373
1 0.450504
1 0.452999
1 0.454554
1 0.455001
1 0.455292
1 0.456217
1 0.456647
1 0.457028
1 0.457259
1 0.460941
1 0.462120
1 0.464448
1 0.467634
1 0.472232
1 0.474644
1 0.475691
1 0.481183
1 0.484378
1 0.484534
1 0.485299
1 0.496510
1 0.497914
1 0.498057
1 0.508694
1 0.509205
1 0.512212
1 0.513219
1 0.515698
1 0.515853
1 0.516013
1 0.517741
1 0.517871
1 0.518563
1 0.519459
1 0.520840
1 0.521297
1 0.521418
1 0.521624
1 0.522411
1 0.523208
1 0.523862
1 0.523926
1 0.527074
1 0.528159
1 0.529361
1 0.531627
1 0.533122
1 0.533256
1 0.535080
1 0.535589
1 0.535796
1 0.538060
1 0.539194
1 0.540623
1 0.542558
1 0.542623
1 0.542696
1 0.544109
1 0.544287
1 0.544583
1 0.544674
1 0.546963
1 0.547237
1 0.547764
1 0.548294
1 0.548575
1 0.550618
1 0.553658
1 0.554612
1 0.560097
1 0.560927
1 0.560991
1 0.563433
1 0.566119
1 0.568796
1 0.570405
1 0.572889
1 0.579427
1 0.579740
1 0.580495
1 0.580852
1 0.582345
1 0.583320
1 0.590895
1 0.592018
1 0.594311
1 0.598526
1 0.599285
1 0.610441
1 0.611784
1 0.612976
1 0.618860
1 0.620171
1 0.625545
1 0.627840
1 0.627920
1 0.629512
1 0.632128
1 0.641649
1 0.651221
1 0.652150
1 0.662963
1 0.663199
1 0.675421
1 0.679853
1 0.682921
1 0.685957
1 0.688184
1 0.696759
1 0.697483
1 0.698107
1 0.700351
1 0.704070
1 0.710360
1 0.710641
1 0.714452
1 0.722105
1 0.727018
1 0.727282
1 0.727394
1 0.727503
1 0.737760
1 0.738867
1 0.743285
1 0.744444
1 0.744882
1 0.747780
1 0.749730
1 0.754410
1 0.755975
1 0.757931
1 0.769217
1 0.777504
1 0.779375
1 0.782706
1 0.783220
1 0.784866
1 0.803212
1 0.803830
1 0.804757
1 0.806572
1 0.813844
1 0.819592
1 0.837197
1 0.842791
End Spectral Lines:
