Symbol: Eu
Atomic Number: 63
Atomic Mass: 151.965000
Start Spectral Index: 3
1 317
2 218
3 229
End Spectral Index:
Order of Magnitude: 0.000001
Start Spectral Lines:
3 0.207406
3 0.209417
3 0.212536
3 0.216780
3 0.217427
3 0.218536
3 0.219127
3 0.219550
3 0.221254
3 0.221332
3 0.221535
3 0.221603
3 0.221792
3 0.222002
3 0.222011
3 0.222382
3 0.223586
3 0.224084
3 0.226258
3 0.226644
3 0.227009
3 0.227755
3 0.229233
3 0.230508
3 0.231263
3 0.232840
3 0.233528
3 0.233768
3 0.234056
3 0.234382
3 0.234755
3 0.234836
3 0.235110
3 0.235123
3 0.235300
3 0.235859
3 0.235980
3 0.236137
3 0.236448
3 0.236876
1 0.237360
3 0.237480
3 0.237593
1 0.237600
3 0.237619
3 0.237715
3 0.237796
1 0.238040
3 0.238254
3 0.238435
3 0.238802
3 0.238984
3 0.239071
3 0.239184
3 0.239263
3 0.239332
3 0.239539
3 0.239635
3 0.239952
3 0.240173
3 0.240307
3 0.240481
3 0.240687
3 0.240803
3 0.240905
3 0.241036
3 0.241081
3 0.241275
3 0.241369
3 0.241399
3 0.241414
3 0.241985
3 0.241999
3 0.242032
3 0.242274
3 0.242364
3 0.242607
3 0.242642
3 0.242841
3 0.243006
3 0.243040
3 0.243078
3 0.243223
3 0.243250
3 0.243329
3 0.243439
3 0.243493
3 0.243588
3 0.243713
3 0.243751
3 0.243957
3 0.244100
3 0.244141
3 0.244512
3 0.244673
3 0.244717
3 0.244931
3 0.245198
3 0.245247
3 0.245596
3 0.246253
3 0.246405
3 0.246522
3 0.247126
3 0.247569
3 0.247699
3 0.247720
3 0.247853
3 0.248077
3 0.248404
3 0.248767
3 0.248966
3 0.249125
3 0.249183
3 0.249323
3 0.249767
3 0.249992
2 0.250014
3 0.251452
3 0.251870
3 0.252290
3 0.253990
3 0.254906
3 0.254936
3 0.255527
2 0.255555
3 0.255884
2 0.255995
3 0.256113
2 0.256494
2 0.256894
2 0.257553
2 0.257791
2 0.258263
3 0.259549
3 0.259554
3 0.259712
3 0.260522
1 0.260539
3 0.260912
3 0.261087
3 0.261689
3 0.261704
3 0.261711
3 0.261713
1 0.262010
3 0.262157
3 0.262411
3 0.262776
3 0.262924
3 0.262960
3 0.263276
2 0.263629
2 0.263956
2 0.264206
3 0.264306
1 0.264460
3 0.264601
3 0.265172
3 0.265398
2 0.265440
3 0.265588
1 0.266020
3 0.266303
3 0.266765
3 0.266900
2 0.266913
2 0.267421
3 0.267689
2 0.267909
1 0.268340
3 0.268401
2 0.268646
3 0.268693
3 0.268854
2 0.269283
3 0.269431
3 0.269560
3 0.270067
3 0.270158
2 0.270194
2 0.270270
2 0.270608
3 0.270905
3 0.270964
1 0.271079
3 0.271288
2 0.271779
3 0.272148
1 0.272477
3 0.272635
2 0.272859
2 0.273014
2 0.273025
1 0.273218
1 0.273342
1 0.273606
1 0.273940
2 0.274143
1 0.274409
3 0.274475
2 0.274507
1 0.274642
2 0.274810
1 0.274864
2 0.275298
3 0.275349
3 0.275593
3 0.275857
3 0.276103
3 0.276254
3 0.276708
3 0.276920
3 0.276936
3 0.277053
1 0.277370
3 0.278130
2 0.278271
3 0.279333
2 0.280367
3 0.280892
2 0.281258
2 0.281391
2 0.281477
2 0.281701
3 0.281841
2 0.282161
2 0.282955
2 0.283013
2 0.283409
3 0.284039
2 0.284480
3 0.284583
3 0.284928
3 0.285123
2 0.285289
2 0.286051
2 0.286341
2 0.286526
2 0.287690
1 0.287971
2 0.288870
1 0.289339
3 0.289345
1 0.289388
1 0.289468
2 0.290753
1 0.290984
3 0.291308
3 0.291349
3 0.291389
2 0.291829
2 0.292590
3 0.292977
3 0.293186
2 0.294815
3 0.295106
2 0.295354
3 0.295760
3 0.295776
1 0.295977
2 0.296033
2 0.296107
3 0.297317
3 0.298316
2 0.299220
2 0.299609
3 0.300098
2 0.300714
3 0.300725
3 0.301416
3 0.301931
3 0.302296
1 0.302303
3 0.302357
3 0.302428
3 0.302481
3 0.302620
3 0.302697
3 0.302767
3 0.303080
3 0.303212
3 0.303372
3 0.303786
3 0.303952
3 0.303993
3 0.304086
2 0.304165
3 0.305496
2 0.305583
3 0.305586
1 0.305987
1 0.306790
2 0.307000
2 0.307696
3 0.307732
2 0.307825
3 0.308999
2 0.309025
2 0.309835
3 0.310615
1 0.310708
3 0.311057
1 0.311233
3 0.313022
2 0.313164
1 0.313307
3 0.314345
2 0.315079
1 0.316920
3 0.317192
2 0.317453
3 0.317900
3 0.317979
3 0.318470
1 0.318646
3 0.319238
3 0.319526
3 0.320723
3 0.320988
1 0.321150
1 0.321374
1 0.321468
3 0.321477
1 0.323606
1 0.324234
1 0.324697
2 0.324826
1 0.324849
2 0.326733
2 0.327371
2 0.327872
2 0.330290
2 0.330545
2 0.330897
2 0.331428
2 0.332085
2 0.332282
1 0.332322
1 0.333529
2 0.333971
1 0.335136
2 0.335252
1 0.335470
2 0.335534
2 0.336861
2 0.337003
2 0.338122
2 0.339175
2 0.339296
2 0.339755
2 0.342082
2 0.342407
2 0.342600
2 0.342742
2 0.343603
2 0.343618
2 0.343670
2 0.344181
2 0.344199
2 0.344617
1 0.345804
2 0.345855
2 0.346237
1 0.346887
1 0.347807
2 0.350630
2 0.352210
2 0.353216
2 0.353324
2 0.353909
2 0.354316
2 0.354486
2 0.355072
2 0.355353
1 0.359029
2 0.359233
2 0.360423
2 0.361260
2 0.361718
2 0.362357
2 0.363322
2 0.367424
2 0.367568
2 0.367931
2 0.368947
2 0.371193
2 0.371451
2 0.371596
2 0.371800
2 0.371875
1 0.372022
2 0.372600
2 0.373074
2 0.373080
1 0.373326
2 0.373914
2 0.374237
2 0.374462
2 0.376219
2 0.376700
1 0.377517
2 0.378247
2 0.378984
2 0.379258
2 0.380009
2 0.380862
1 0.381241
2 0.381658
2 0.382075
2 0.382777
2 0.384532
1 0.386667
1 0.387382
2 0.387837
1 0.388585
1 0.389788
1 0.390128
1 0.390162
2 0.390821
2 0.391635
1 0.391711
1 0.391840
2 0.391881
1 0.391963
2 0.392020
2 0.392998
2 0.393159
2 0.394268
2 0.394333
2 0.394406
2 0.394420
2 0.394571
2 0.394679
2 0.395025
1 0.395072
2 0.395188
2 0.395245
1 0.395687
2 0.395904
1 0.396473
2 0.396602
2 0.396771
1 0.396830
2 0.397308
1 0.397955
2 0.398076
1 0.398773
2 0.398937
2 0.399506
2 0.399711
2 0.400484
2 0.401282
2 0.401872
1 0.404033
1 0.407939
2 0.408653
2 0.409796
1 0.410804
2 0.411320
2 0.412046
1 0.412844
2 0.413086
2 0.413776
1 0.413824
2 0.414219
2 0.414289
2 0.415269
2 0.415281
1 0.415889
2 0.417398
2 0.417634
1 0.418340
2 0.419654
2 0.419736
2 0.420623
2 0.422227
2 0.422507
2 0.422859
2 0.423052
2 0.423364
2 0.423870
2 0.423988
1 0.424594
2 0.424826
2 0.425500
2 0.427144
1 0.429994
1 0.433058
1 0.433119
2 0.433183
1 0.433240
1 0.433890
2 0.435631
2 0.436280
2 0.437070
2 0.437343
2 0.438440
1 0.438911
2 0.440651
2 0.440831
2 0.442090
2 0.443606
2 0.443681
2 0.446622
2 0.448641
2 0.452384
1 0.453686
1 0.459532
1 0.460392
1 0.462852
1 0.466319
1 0.471491
1 0.474183
1 0.479393
1 0.483065
1 0.483168
3 0.483933
1 0.484182
1 0.485099
1 0.486898
1 0.488541
1 0.489605
1 0.490223
1 0.490855
1 0.491277
1 0.495490
1 0.496159
1 0.496393
1 0.497715
1 0.501457
1 0.502431
1 0.503094
1 0.503495
1 0.506936
1 0.509411
1 0.509786
1 0.511580
1 0.512620
1 0.513053
1 0.513151
1 0.513495
1 0.516151
1 0.516814
1 0.519519
1 0.520130
1 0.520241
1 0.520789
1 0.521655
1 0.522494
1 0.524070
1 0.526787
1 0.527343
1 0.527395
1 0.528429
1 0.528872
1 0.529072
1 0.529273
1 0.529515
1 0.529611
1 0.530533
1 0.535190
1 0.535318
1 0.535433
1 0.535659
1 0.535910
1 0.536232
1 0.536310
1 0.537844
1 0.539444
1 0.540427
1 0.540683
1 0.541336
1 0.542258
1 0.542845
1 0.544507
1 0.545303
1 0.545446
1 0.545914
1 0.547384
1 0.549017
1 0.549673
1 0.550236
1 0.551205
1 0.552817
1 0.553479
1 0.554408
1 0.554898
1 0.557188
1 0.557869
1 0.558118
1 0.558158
1 0.558779
1 0.558838
1 0.559380
1 0.560135
1 0.560742
1 0.562037
1 0.562400
1 0.563410
1 0.564737
1 0.565268
1 0.567542
1 0.568268
1 0.568582
1 0.573246
1 0.574059
1 0.576680
1 0.578529
1 0.579433
1 0.580188
2 0.582035
1 0.583260
1 0.584739
1 0.586259
1 0.586640
2 0.587461
1 0.589694
1 0.590461
1 0.591158
1 0.591738
1 0.592694
1 0.592816
1 0.594437
1 0.595514
2 0.595549
1 0.595593
1 0.596541
2 0.596772
1 0.596875
1 0.597008
1 0.597334
1 0.597440
1 0.598213
1 0.598480
1 0.598544
1 0.599449
1 0.600602
1 0.600727
1 0.601387
1 0.601423
1 0.601725
1 0.601982
1 0.602482
1 0.603067
1 0.604633
2 0.605119
1 0.605904
1 0.607726
1 0.607906
1 0.608552
1 0.610104
1 0.610984
1 0.612047
1 0.612637
2 0.617476
1 0.618047
1 0.618984
1 0.619678
1 0.620932
1 0.623223
1 0.623545
1 0.625220
1 0.626398
1 0.626868
1 0.628769
1 0.629308
1 0.630151
2 0.630515
1 0.631553
1 0.632033
1 0.633757
1 0.635180
1 0.635765
1 0.637101
1 0.638449
1 0.638562
1 0.640270
1 0.640788
1 0.641181
1 0.641309
1 0.643007
2 0.643942
1 0.644171
1 0.645974
1 0.647249
1 0.648481
1 0.650335
1 0.652139
1 0.652452
1 0.655093
1 0.656968
1 0.659561
1 0.660537
2 0.664695
3 0.666819
1 0.668706
1 0.669581
1 0.670291
1 0.671230
1 0.674674
1 0.678441
1 0.678935
1 0.680460
1 0.681794
1 0.683619
1 0.684282
1 0.684672
1 0.684893
1 0.686643
1 0.690011
1 0.690557
1 0.691208
1 0.691673
1 0.704214
1 0.707649
2 0.707905
1 0.710844
1 0.716663
1 0.717753
2 0.719679
2 0.721954
3 0.722383
1 0.722667
1 0.726072
1 0.726477
1 0.728354
1 0.729957
2 0.730318
1 0.731247
1 0.731565
1 0.733820
1 0.734827
1 0.735868
1 0.736428
1 0.737163
2 0.737225
1 0.738939
1 0.739120
1 0.740645
2 0.742862
1 0.743864
1 0.747259
1 0.749306
1 0.753077
1 0.753509
1 0.754940
1 0.758600
3 0.769256
1 0.774470
1 0.774832
1 0.780547
1 0.782036
1 0.789016
1 0.801767
3 0.808129
1 0.821206
1 0.822907
1 0.846704
1 0.864504
1 0.873017
1 0.878487
1 0.879329
1 0.887274
End Spectral Lines:
