Symbol: Tm
Atomic Number: 69
Atomic Mass: 168.934000
Start Spectral Index: 3
1 238
2 267
3 186
End Spectral Index:
Order of Magnitude: 0.000001
Start Spectral Lines:
3 0.209978
3 0.210777
3 0.213734
3 0.215697
3 0.218366
3 0.218459
3 0.218662
3 0.221294
3 0.223155
3 0.223194
3 0.224404
3 0.224468
3 0.224738
3 0.227009
3 0.227761
3 0.228078
3 0.228197
3 0.228356
3 0.228368
2 0.228550
3 0.228728
3 0.228792
3 0.229544
3 0.229692
3 0.229814
3 0.230535
3 0.230553
3 0.230574
3 0.231187
3 0.231343
3 0.231559
3 0.231806
3 0.232167
3 0.232354
3 0.232442
3 0.232448
3 0.232514
3 0.232533
3 0.232690
3 0.232773
3 0.232796
3 0.232921
3 0.233000
2 0.233048
3 0.233159
3 0.233252
3 0.233573
3 0.233908
2 0.234164
3 0.234246
3 0.234276
3 0.234531
3 0.234633
3 0.234815
3 0.235382
3 0.235637
3 0.235777
3 0.236195
2 0.236463
3 0.236469
2 0.236668
2 0.236783
3 0.237605
3 0.237656
2 0.238441
2 0.238968
3 0.239025
3 0.240736
2 0.240975
2 0.241317
2 0.242239
2 0.242691
3 0.243605
2 0.244621
3 0.245860
3 0.247198
2 0.248088
2 0.248190
2 0.248827
3 0.249019
2 0.249235
3 0.249700
2 0.250029
3 0.250546
2 0.250791
2 0.250984
1 0.251460
3 0.252054
2 0.252163
2 0.252293
2 0.252487
1 0.252778
2 0.252818
2 0.254342
3 0.255323
1 0.255353
3 0.255867
2 0.256242
2 0.256463
3 0.257529
3 0.257575
3 0.258261
3 0.258625
2 0.258904
3 0.258997
1 0.259727
1 0.260187
2 0.260680
2 0.260784
3 0.260974
3 0.261044
3 0.261800
3 0.261956
3 0.262190
3 0.262213
3 0.262309
1 0.262330
2 0.262511
3 0.262787
3 0.262961
3 0.263545
3 0.263747
3 0.263809
3 0.264111
2 0.264155
3 0.264437
3 0.264584
2 0.264724
3 0.265006
2 0.265106
3 0.265161
3 0.265484
3 0.265709
2 0.265927
2 0.266088
3 0.266230
3 0.266379
3 0.266555
3 0.266567
3 0.266584
3 0.266772
2 0.266899
3 0.266938
3 0.266945
3 0.266997
3 0.267221
3 0.267610
3 0.267744
3 0.267771
3 0.267908
2 0.268037
3 0.268129
3 0.268312
3 0.268344
3 0.268794
3 0.269649
2 0.269830
3 0.269901
3 0.270029
3 0.270060
3 0.270443
3 0.270448
3 0.270573
3 0.270783
3 0.270799
3 0.270824
3 0.270840
3 0.271054
3 0.271159
3 0.271418
3 0.271661
3 0.271837
3 0.271883
3 0.272028
2 0.272200
3 0.272525
3 0.272837
3 0.272894
3 0.273219
3 0.273292
3 0.273879
2 0.274489
3 0.274555
3 0.274680
3 0.275327
3 0.275401
3 0.275696
3 0.276680
3 0.277074
3 0.277346
3 0.277825
2 0.278037
3 0.278194
2 0.278589
2 0.279542
2 0.279809
3 0.280760
2 0.281930
3 0.282195
2 0.282785
2 0.282875
2 0.283238
1 0.284190
2 0.284551
3 0.285036
1 0.285501
2 0.286096
2 0.286258
2 0.287007
3 0.288287
2 0.289179
3 0.290014
3 0.291318
1 0.291570
2 0.291912
3 0.292194
2 0.292651
2 0.292760
1 0.293390
2 0.293685
3 0.294788
3 0.294858
2 0.295212
3 0.295404
2 0.296673
3 0.296702
3 0.296772
3 0.297348
1 0.297409
3 0.297572
2 0.298235
2 0.298739
2 0.299141
2 0.299413
3 0.299915
2 0.301459
2 0.301553
2 0.301618
2 0.301797
2 0.302695
2 0.304324
2 0.304765
1 0.304780
3 0.304900
2 0.305162
2 0.305696
2 0.307397
3 0.307976
1 0.308201
2 0.309950
3 0.312105
1 0.312340
2 0.313217
2 0.313480
1 0.314330
2 0.314581
2 0.314707
2 0.315195
2 0.315825
1 0.317357
2 0.317375
2 0.317450
2 0.319625
2 0.321149
2 0.321175
2 0.321294
2 0.323244
1 0.323460
2 0.323637
2 0.323774
2 0.324117
2 0.324248
1 0.324790
2 0.324840
1 0.325270
2 0.325899
2 0.326259
2 0.326504
2 0.326758
2 0.326834
2 0.326993
2 0.327775
3 0.327820
2 0.328435
2 0.328656
2 0.329195
2 0.330341
2 0.330696
2 0.330786
2 0.330896
2 0.331075
2 0.331154
2 0.331783
2 0.331960
1 0.335095
2 0.335582
2 0.336358
2 0.337547
1 0.338170
2 0.338596
2 0.339848
2 0.340093
1 0.340700
3 0.340871
1 0.341103
1 0.341357
3 0.341638
3 0.341694
1 0.341757
1 0.341960
2 0.342606
2 0.342661
1 0.343031
2 0.343094
2 0.343217
3 0.343792
2 0.344249
2 0.345465
2 0.346319
1 0.346850
3 0.346892
1 0.347769
1 0.348198
2 0.348275
1 0.348838
2 0.349358
1 0.350095
2 0.351402
1 0.351861
3 0.353030
3 0.353429
2 0.353586
2 0.353653
2 0.353722
2 0.353759
3 0.353848
1 0.353892
1 0.355684
2 0.355881
1 0.356194
3 0.356343
3 0.356444
1 0.356490
2 0.356693
2 0.356749
1 0.356838
2 0.357508
1 0.358709
3 0.358876
2 0.360980
2 0.361056
3 0.361899
3 0.363012
1 0.363945
2 0.364469
2 0.364876
2 0.365465
2 0.366685
2 0.366913
2 0.367903
2 0.367990
2 0.369579
2 0.370131
2 0.370241
2 0.370590
3 0.370716
1 0.371897
2 0.372612
2 0.373518
1 0.374512
1 0.375288
2 0.375793
2 0.376240
2 0.376298
2 0.378462
2 0.379624
2 0.379683
1 0.379962
2 0.379983
3 0.380049
1 0.380880
2 0.381180
2 0.381847
1 0.382748
2 0.383929
1 0.384196
2 0.384911
2 0.385893
1 0.388423
2 0.388454
1 0.388845
2 0.389163
1 0.389772
2 0.390190
1 0.391759
2 0.392977
2 0.393069
1 0.395039
2 0.395922
2 0.399671
2 0.399765
3 0.399997
3 0.402306
1 0.402370
1 0.402537
3 0.402717
3 0.403327
1 0.404561
3 0.407730
1 0.409535
1 0.410700
2 0.413386
1 0.413950
1 0.415031
1 0.415977
1 0.418880
2 0.420110
1 0.420491
2 0.420718
1 0.422386
2 0.424334
1 0.427291
1 0.429957
3 0.433669
1 0.436116
3 0.438664
1 0.438766
1 0.439565
1 0.439719
1 0.439774
2 0.443865
1 0.444399
1 0.444883
1 0.445528
1 0.446124
1 0.446923
2 0.448252
2 0.449096
1 0.452087
2 0.452384
2 0.453065
1 0.453342
1 0.454988
2 0.455796
2 0.456314
1 0.456596
2 0.456839
1 0.459792
1 0.460031
2 0.460258
2 0.460472
1 0.460614
1 0.461526
2 0.461576
2 0.461723
2 0.462035
1 0.462301
2 0.462763
2 0.462786
1 0.462827
2 0.463556
2 0.464426
1 0.464442
1 0.464588
1 0.465639
2 0.466801
2 0.467330
1 0.467641
1 0.467662
2 0.467917
1 0.468323
1 0.468642
1 0.469242
1 0.472558
1 0.473466
2 0.475208
1 0.476123
2 0.479126
1 0.480882
1 0.481002
1 0.481485
2 0.482834
1 0.483032
2 0.483255
1 0.483710
1 0.485312
2 0.485326
2 0.487364
1 0.488055
1 0.489301
1 0.491111
1 0.492520
1 0.495856
2 0.497226
1 0.497265
2 0.497651
1 0.498029
2 0.498207
2 0.499071
2 0.499518
2 0.499611
1 0.500242
1 0.500299
2 0.501117
2 0.501596
2 0.501927
2 0.503562
2 0.504241
1 0.504491
1 0.504682
2 0.506183
1 0.506231
1 0.506366
1 0.506729
1 0.506808
1 0.507383
1 0.507778
1 0.507860
1 0.508651
1 0.510895
1 0.511540
2 0.511598
1 0.512210
2 0.514171
2 0.515083
1 0.518412
1 0.518669
2 0.520596
1 0.521483
2 0.522969
2 0.526239
2 0.526881
1 0.529261
1 0.529579
1 0.530168
1 0.530417
2 0.530735
1 0.530860
2 0.532447
1 0.534039
1 0.534052
2 0.534798
2 0.537447
2 0.539346
2 0.540196
1 0.540373
2 0.540748
2 0.546347
1 0.546566
2 0.546706
2 0.550183
2 0.552836
1 0.552988
2 0.554057
1 0.556755
1 0.558292
2 0.558820
2 0.559149
1 0.560820
1 0.563297
1 0.564417
1 0.564697
1 0.565987
1 0.567742
1 0.568517
2 0.568634
2 0.569800
2 0.571155
1 0.571738
2 0.573540
2 0.573879
2 0.573884
2 0.574051
1 0.575962
1 0.576180
1 0.576589
2 0.578042
2 0.578396
2 0.578606
2 0.580158
2 0.581280
1 0.581807
2 0.584038
1 0.589726
1 0.590110
1 0.590321
1 0.591422
1 0.593334
1 0.593754
1 0.597291
1 0.597668
1 0.598653
1 0.602711
2 0.606946
1 0.613323
1 0.617700
2 0.618312
2 0.630120
1 0.635442
1 0.640321
2 0.643272
1 0.644232
1 0.646205
1 0.649249
1 0.652158
1 0.657736
1 0.660678
1 0.662908
1 0.665956
1 0.666048
1 0.669478
1 0.672322
1 0.672820
2 0.672980
1 0.674108
1 0.676935
1 0.677980
1 0.678164
1 0.678387
1 0.679039
1 0.682215
1 0.682883
2 0.683100
1 0.683298
1 0.684615
1 0.684765
1 0.685601
1 0.690046
1 0.691777
1 0.693928
1 0.695146
2 0.697861
1 0.701272
2 0.701624
1 0.701984
1 0.703134
1 0.703628
2 0.705838
1 0.706292
2 0.708173
1 0.710810
1 0.723332
2 0.723573
1 0.725972
1 0.727462
1 0.728631
1 0.728817
1 0.731252
2 0.733865
1 0.743423
2 0.743656
2 0.744200
1 0.748314
1 0.749226
1 0.750935
1 0.754786
1 0.756041
1 0.758270
1 0.759583
2 0.759716
1 0.763195
2 0.765087
1 0.765711
1 0.766243
1 0.766835
2 0.767815
1 0.770358
1 0.773366
1 0.778041
1 0.778449
1 0.778765
1 0.778804
1 0.780608
1 0.783137
1 0.785824
1 0.786383
1 0.792028
1 0.792969
1 0.793302
1 0.797375
1 0.798813
1 0.801697
1 0.802011
1 0.802354
1 0.819644
1 0.829680
1 0.836805
2 0.846311
2 0.847434
2 0.854842
2 0.856808
End Spectral Lines:
