Symbol: Hf
Atomic Number: 72
Atomic Mass: 178.490000
Start Spectral Index: 5
1 330
2 218
3 37
4 27
5 82
End Spectral Index:
Order of Magnitude: 0.000001
Start Spectral Lines:
4 0.052004
5 0.054541
4 0.056919
4 0.059656
5 0.060000
4 0.060090
4 0.060316
4 0.061827
4 0.062019
4 0.063358
4 0.064305
4 0.064454
4 0.064739
4 0.066565
4 0.067136
4 0.067349
5 0.081681
5 0.083069
5 0.083674
5 0.084687
5 0.085632
5 0.086180
5 0.086516
5 0.086725
5 0.087588
5 0.087787
5 0.088037
5 0.088085
5 0.088558
5 0.088580
5 0.089424
5 0.089441
5 0.089614
5 0.089647
5 0.089970
5 0.090154
5 0.090192
5 0.090495
5 0.090970
5 0.091368
5 0.091848
5 0.091910
5 0.092167
5 0.092801
5 0.093150
5 0.094712
5 0.095162
5 0.096012
5 0.096474
5 0.097151
5 0.097462
5 0.098464
5 0.099150
5 0.107842
5 0.107992
5 0.109276
5 0.109728
5 0.113749
5 0.120176
5 0.120888
5 0.122462
5 0.122798
5 0.123021
5 0.123203
5 0.123359
5 0.123742
5 0.123885
5 0.123953
5 0.124446
5 0.125925
4 0.130524
4 0.135740
4 0.139039
5 0.139666
5 0.140009
5 0.140170
5 0.140577
5 0.140717
5 0.140838
5 0.141228
5 0.141351
5 0.142196
5 0.142253
5 0.143343
5 0.143727
5 0.143773
5 0.144540
3 0.144983
5 0.145791
4 0.149167
3 0.150782
4 0.152882
4 0.156018
4 0.157203
3 0.168395
4 0.171721
4 0.171857
5 0.171932
5 0.172908
5 0.173183
5 0.173396
5 0.174174
5 0.174911
5 0.175019
3 0.175691
5 0.176089
5 0.176562
5 0.177402
5 0.179239
3 0.184364
3 0.187058
3 0.187481
3 0.188515
3 0.199144
2 0.201343
4 0.201471
2 0.202883
3 0.203841
4 0.205512
3 0.207160
3 0.208599
2 0.209685
3 0.209997
3 0.211098
3 0.212036
3 0.215634
3 0.218418
3 0.219613
2 0.221151
3 0.221423
3 0.223528
2 0.225471
2 0.225585
2 0.226753
2 0.227786
3 0.231415
2 0.232185
2 0.232318
2 0.232396
2 0.232521
2 0.232560
2 0.233369
3 0.233719
2 0.233805
2 0.234404
2 0.234816
2 0.235194
1 0.235374
3 0.235620
2 0.236670
3 0.237402
3 0.237830
2 0.238103
2 0.238173
3 0.238427
2 0.239391
2 0.239409
2 0.239456
2 0.240151
2 0.240529
2 0.240615
2 0.240717
2 0.241087
2 0.241406
2 0.241669
2 0.241842
2 0.242672
1 0.242949
2 0.242973
2 0.243431
2 0.243548
1 0.244573
2 0.244799
2 0.245018
2 0.245304
2 0.245408
2 0.246123
3 0.246248
2 0.246472
2 0.246494
2 0.246581
1 0.246642
2 0.246872
2 0.246993
2 0.247467
2 0.248219
1 0.248340
1 0.248791
3 0.249591
2 0.249774
2 0.251345
2 0.251379
3 0.251592
2 0.251624
2 0.251764
2 0.253195
3 0.253509
2 0.253809
2 0.254896
2 0.255217
2 0.255996
3 0.256151
2 0.256438
3 0.256823
2 0.257244
2 0.257467
2 0.257759
2 0.257891
2 0.258331
2 0.259211
2 0.260715
2 0.260781
1 0.260923
2 0.261438
2 0.262352
1 0.263779
2 0.263950
2 0.264220
1 0.264354
2 0.264808
2 0.265195
2 0.265863
2 0.266267
2 0.268415
3 0.268802
1 0.270641
2 0.270753
2 0.271322
1 0.271464
1 0.271940
1 0.273166
2 0.273957
1 0.274445
2 0.275262
3 0.275441
1 0.276245
1 0.276778
1 0.277384
2 0.277418
2 0.277484
1 0.278019
2 0.279032
2 0.279055
2 0.280883
2 0.281469
2 0.281531
1 0.281851
1 0.281977
1 0.282057
2 0.282105
2 0.282351
1 0.283411
1 0.283496
1 0.284667
2 0.285005
1 0.285180
2 0.285205
1 0.286140
2 0.286185
2 0.286254
1 0.286721
2 0.287066
2 0.287717
1 0.288799
1 0.288839
1 0.289047
1 0.289911
2 0.289956
1 0.290526
1 0.290560
2 0.291076
1 0.291733
1 0.291943
2 0.292044
1 0.292548
2 0.293049
1 0.293076
2 0.293866
1 0.294163
1 0.294557
1 0.295154
1 0.295506
1 0.295888
2 0.296267
1 0.296575
1 0.296780
2 0.296810
2 0.296968
1 0.297424
2 0.297675
1 0.298015
1 0.298168
1 0.298359
2 0.300097
1 0.300644
2 0.301378
1 0.301766
2 0.301782
1 0.301919
1 0.302141
2 0.302617
2 0.303204
2 0.304697
1 0.305165
1 0.305791
3 0.306097
1 0.306467
2 0.306557
1 0.306830
1 0.307377
1 0.307499
1 0.307568
2 0.308155
1 0.308173
1 0.309766
2 0.310230
2 0.311002
2 0.311177
1 0.312088
1 0.313272
2 0.313563
1 0.313842
2 0.314056
2 0.314167
2 0.314623
1 0.314932
1 0.315254
1 0.315754
1 0.316073
2 0.316353
1 0.316931
1 0.317386
2 0.317778
1 0.318193
1 0.318207
1 0.319054
2 0.319445
2 0.319511
1 0.319785
2 0.320091
1 0.320704
1 0.321191
2 0.321823
2 0.322154
1 0.323099
1 0.324037
1 0.324429
1 0.324860
1 0.325047
2 0.325464
2 0.325622
1 0.326341
2 0.327460
3 0.328062
2 0.328093
1 0.329200
1 0.330707
1 0.331014
1 0.331122
1 0.331381
2 0.331894
2 0.332917
1 0.333369
2 0.335302
1 0.335774
1 0.335988
1 0.336103
1 0.336765
1 0.337990
2 0.338511
2 0.338567
1 0.338718
2 0.339080
1 0.339378
2 0.339556
2 0.339595
1 0.339824
1 0.339858
2 0.340078
1 0.340119
1 0.340349
2 0.340874
2 0.341115
1 0.341832
1 0.342016
1 0.342842
2 0.342935
2 0.343923
1 0.343942
1 0.344283
1 0.345330
2 0.346363
1 0.346859
1 0.347339
2 0.347999
2 0.348028
2 0.349675
1 0.349816
1 0.349849
1 0.349998
2 0.350623
1 0.351428
2 0.351976
1 0.352403
1 0.353188
1 0.353224
2 0.353655
1 0.353763
1 0.354982
2 0.355371
1 0.355502
2 0.356268
1 0.356533
1 0.356838
2 0.357006
1 0.358092
1 0.358430
2 0.359845
1 0.360090
1 0.361607
1 0.361792
1 0.361871
2 0.362503
2 0.363191
1 0.363647
2 0.364540
1 0.365014
1 0.365288
2 0.366209
2 0.366639
1 0.366925
1 0.367332
1 0.367679
1 0.368329
1 0.369756
2 0.369945
2 0.370077
2 0.370220
1 0.370597
2 0.370645
1 0.371886
2 0.372034
1 0.372755
1 0.373016
1 0.373485
2 0.373894
1 0.374010
3 0.374300
2 0.374604
1 0.374787
1 0.375429
1 0.376612
1 0.376663
2 0.376799
1 0.376932
1 0.377871
1 0.378654
2 0.379445
1 0.379974
1 0.380146
2 0.380715
1 0.381286
2 0.381828
1 0.382046
1 0.382181
1 0.383076
1 0.383111
1 0.385027
2 0.385061
1 0.385940
1 0.386200
2 0.387365
2 0.387820
2 0.388192
1 0.388362
2 0.388487
1 0.389033
1 0.389043
1 0.390104
2 0.391920
2 0.392501
1 0.392753
1 0.392868
2 0.393065
1 0.393249
2 0.393676
1 0.394016
1 0.395295
1 0.396913
1 0.397460
1 0.403341
2 0.404910
1 0.406399
1 0.406736
1 0.408450
2 0.409432
1 0.410539
1 0.410774
2 0.411469
1 0.411976
2 0.412896
1 0.414693
2 0.416353
1 0.416386
1 0.417552
1 0.419213
2 0.420777
1 0.421089
1 0.422927
2 0.423363
1 0.426218
1 0.426459
2 0.427405
1 0.429600
1 0.431935
1 0.433149
2 0.433788
2 0.435173
1 0.435755
2 0.436913
2 0.437220
2 0.441859
1 0.441915
1 0.443929
1 0.445859
1 0.446243
1 0.454220
1 0.456722
1 0.460009
1 0.462215
1 0.465649
1 0.470032
1 0.478408
1 0.480184
1 0.486060
1 0.497664
1 0.501960
1 0.502315
2 0.504223
1 0.504886
2 0.508107
1 0.511355
2 0.512996
1 0.515940
1 0.516886
1 0.517162
1 0.518330
1 0.518828
2 0.518919
1 0.524545
2 0.524856
2 0.526190
2 0.526642
1 0.527651
1 0.528756
1 0.529634
2 0.529953
1 0.530930
1 0.531116
2 0.531308
2 0.532574
2 0.534779
1 0.535622
1 0.537535
1 0.539084
2 0.539286
1 0.540597
1 0.542553
1 0.543729
1 0.544025
2 0.544558
1 0.545444
2 0.546490
1 0.549883
1 0.551165
1 0.551198
2 0.552588
1 0.553956
1 0.553980
1 0.555214
1 0.555366
1 0.557741
1 0.560232
1 0.561483
1 0.561557
1 0.562983
1 0.565240
1 0.571487
1 0.572077
1 0.575031
2 0.576878
2 0.581111
1 0.581908
2 0.584385
1 0.584749
1 0.584939
1 0.588529
1 0.592811
1 0.593533
1 0.597593
1 0.597638
1 0.598032
1 0.599462
1 0.601846
1 0.605585
1 0.610036
1 0.618684
1 0.621242
1 0.621854
1 0.624031
2 0.625068
1 0.630128
1 0.631360
1 0.632008
1 0.633985
1 0.638195
1 0.638800
1 0.641129
1 0.655831
1 0.658905
2 0.664643
2 0.664890
1 0.666124
1 0.671533
2 0.675647
1 0.677182
1 0.679114
1 0.682082
1 0.682844
1 0.685196
1 0.686059
1 0.691331
1 0.692810
1 0.698152
2 0.698284
1 0.702119
2 0.703227
1 0.703707
1 0.706385
1 0.706482
1 0.706578
1 0.709636
1 0.710250
1 0.712148
1 0.713378
1 0.723909
1 0.724287
1 0.726462
4 0.726958
1 0.732207
1 0.732378
1 0.735813
1 0.736731
1 0.739274
1 0.742573
1 0.743961
1 0.746592
1 0.748662
1 0.755845
1 0.756501
1 0.756630
1 0.757904
1 0.759505
1 0.761068
1 0.762650
1 0.764774
1 0.774230
1 0.774570
4 0.775342
2 0.776002
1 0.779304
1 0.779896
1 0.781670
1 0.784751
1 0.784872
1 0.792289
1 0.794024
1 0.799693
1 0.801278
1 0.805874
1 0.808254
1 0.817614
1 0.820684
1 0.825108
1 0.827923
2 0.830819
1 0.834654
1 0.838236
1 0.838528
1 0.846233
1 0.854883
1 0.864243
1 0.871363
1 0.900720
End Spectral Lines:
