Symbol: Po
Atomic Number: 84
Atomic Mass: 209.000000
Start Spectral Index: 1
1 37
End Spectral Index:
Order of Magnitude: 0.000001
Start Spectral Lines:
1 0.213969
1 0.222136
1 0.222282
1 0.234533
1 0.242246
1 0.242683
1 0.245082
1 0.248469
1 0.249128
1 0.253571
1 0.255810
1 0.255878
1 0.258841
1 0.264615
1 0.267246
1 0.276274
1 0.280109
1 0.282494
1 0.286685
1 0.292016
1 0.295978
1 0.300409
1 0.307020
1 0.318994
1 0.324118
1 0.328733
1 0.332956
1 0.386302
1 0.417170
1 0.449447
1 0.461273
1 0.487760
1 0.532471
1 0.574644
1 0.796481
1 0.843619
1 0.862063
End Spectral Lines:
