Symbol: Ra
Atomic Number: 88
Atomic Mass: 226.025000
Start Spectral Index: 2
1 31
2 23
End Spectral Index:
Order of Magnitude: 0.000001
Start Spectral Lines:
2 0.237045
2 0.246129
2 0.247625
2 0.258738
2 0.264452
2 0.270976
2 0.279603
2 0.281459
2 0.303432
1 0.310270
2 0.365059
2 0.381550
2 0.419527
2 0.424592
2 0.434186
2 0.443752
2 0.453438
1 0.464259
2 0.468359
1 0.470060
1 0.482726
1 0.485743
2 0.486077
2 0.492891
1 0.509898
1 0.520738
1 0.528475
1 0.532177
1 0.540130
1 0.540173
1 0.540831
1 0.548365
1 0.550351
1 0.555511
1 0.555739
1 0.561822
1 0.566238
2 0.581524
1 0.620202
1 0.633865
1 0.644798
1 0.648911
2 0.659516
2 0.672117
1 0.698215
1 0.712046
1 0.714318
1 0.722715
1 0.731228
1 0.784028
2 0.802191
1 0.817956
1 0.833736
1 0.993493
End Spectral Lines:
