Symbol: Os
Atomic Number: 76
Atomic Mass: 190.230000
Start Spectral Index: 2
1 534
2 38
End Spectral Index:
Order of Magnitude: 0.000001
Start Spectral Lines:
1 0.200210
1 0.200438
1 0.201080
1 0.201879
1 0.202341
1 0.202888
1 0.203509
1 0.204602
1 0.205935
1 0.205944
1 0.206235
2 0.206787
2 0.207133
1 0.207761
1 0.208063
1 0.208320
1 0.208969
1 0.208987
1 0.209827
1 0.210130
1 0.211833
1 0.211863
1 0.212451
1 0.213778
1 0.215527
1 0.215852
1 0.215921
1 0.216758
1 0.216843
1 0.217233
1 0.218536
2 0.219508
1 0.220318
1 0.222867
1 0.223530
1 0.225285
2 0.225655
1 0.226530
1 0.226898
1 0.227087
2 0.228296
1 0.228437
1 0.229003
1 0.229802
1 0.230902
2 0.231446
1 0.232089
1 0.232469
1 0.232495
1 0.232770
1 0.233528
2 0.233752
1 0.233935
1 0.234141
1 0.234446
1 0.234647
1 0.234810
2 0.235095
1 0.235371
2 0.235600
1 0.235764
1 0.235797
1 0.236313
1 0.236349
2 0.236807
1 0.236996
1 0.237142
1 0.237190
2 0.237579
1 0.237776
1 0.237834
1 0.238012
1 0.238535
1 0.238802
1 0.239502
1 0.239612
1 0.239661
1 0.239751
1 0.240186
1 0.240296
1 0.240427
1 0.240458
2 0.240581
1 0.240618
1 0.240669
1 0.240940
1 0.241171
1 0.241525
1 0.241872
1 0.241926
2 0.242076
2 0.242381
2 0.242476
1 0.242530
1 0.242571
1 0.242755
2 0.242864
1 0.243193
1 0.243235
1 0.244676
1 0.245148
1 0.245247
1 0.245464
2 0.245565
1 0.245720
1 0.246216
2 0.246965
1 0.247303
1 0.247553
1 0.247759
1 0.248318
2 0.248699
1 0.248930
1 0.249177
1 0.249244
1 0.249317
1 0.249916
1 0.250067
1 0.250304
1 0.250514
1 0.250526
2 0.250794
2 0.251047
1 0.251363
1 0.251401
1 0.251580
1 0.251868
1 0.251920
1 0.252005
1 0.252055
1 0.253320
2 0.253876
1 0.253886
1 0.254327
2 0.254960
1 0.255523
2 0.256393
1 0.256726
1 0.256765
1 0.256960
1 0.257255
2 0.257909
2 0.258080
1 0.258182
1 0.258273
1 0.259153
1 0.259276
2 0.259678
1 0.260998
1 0.261034
1 0.261156
1 0.261341
1 0.261384
1 0.262072
1 0.262140
1 0.262260
1 0.262926
2 0.263200
1 0.263792
1 0.264490
1 0.264768
1 0.264852
1 0.265013
1 0.265747
1 0.265939
1 0.266062
1 0.266197
2 0.266508
1 0.267536
1 0.267568
1 0.269062
1 0.270039
1 0.270750
1 0.271544
1 0.271616
1 0.272085
1 0.272267
1 0.273142
2 0.273217
1 0.273361
1 0.276224
1 0.276409
1 0.276586
1 0.277153
1 0.277773
1 0.278337
2 0.278470
1 0.278713
1 0.279481
1 0.279501
1 0.279755
1 0.280490
1 0.280774
1 0.280977
1 0.281467
1 0.281503
1 0.281661
1 0.283010
1 0.283825
1 0.283900
1 0.283946
1 0.284244
1 0.284524
1 0.284723
1 0.284909
1 0.285160
1 0.286180
2 0.286421
1 0.287580
1 0.287924
2 0.288023
2 0.288104
1 0.289691
1 0.290991
1 0.291318
1 0.291811
1 0.292064
1 0.292643
1 0.293037
1 0.293214
1 0.293550
1 0.294371
1 0.294909
1 0.295039
1 0.295067
1 0.296187
1 0.296302
1 0.296493
1 0.297184
1 0.297851
1 0.298377
1 0.299852
1 0.301395
1 0.301813
1 0.301892
1 0.302026
1 0.303158
1 0.304178
2 0.304363
1 0.304439
1 0.305035
1 0.305128
1 0.305955
1 0.306119
1 0.306308
1 0.307083
1 0.307497
1 0.307585
1 0.307833
1 0.307861
1 0.307900
1 0.307927
1 0.309098
1 0.309449
1 0.310243
1 0.310689
1 0.310988
1 0.311028
1 0.311199
1 0.311923
1 0.313203
1 0.315358
1 0.315452
1 0.315716
1 0.315769
1 0.316743
2 0.317485
1 0.317898
1 0.318280
1 0.318625
1 0.318790
1 0.319038
1 0.319515
2 0.321424
1 0.323299
1 0.323956
1 0.324198
1 0.324894
1 0.325585
1 0.325786
1 0.326124
1 0.326323
1 0.326369
1 0.326888
1 0.327015
1 0.327310
1 0.327614
1 0.327891
1 0.328979
1 0.329121
1 0.330251
1 0.330718
1 0.331186
1 0.331637
1 0.332529
1 0.332838
1 0.333711
1 0.335270
1 0.335894
1 0.336212
1 0.336509
1 0.337117
1 0.337156
1 0.337305
1 0.337965
1 0.338497
1 0.338691
1 0.338881
1 0.340215
1 0.340284
1 0.340349
1 0.340974
1 0.341372
1 0.342267
1 0.342865
1 0.344159
1 0.344545
1 0.344654
1 0.345019
1 0.345937
1 0.346643
1 0.347953
1 0.348311
1 0.348846
1 0.349954
1 0.350216
1 0.350566
1 0.351399
1 0.351973
1 0.352101
1 0.352465
1 0.352705
1 0.352961
1 0.353107
1 0.353381
1 0.353442
1 0.354372
1 0.356081
1 0.356188
1 0.356336
1 0.357080
1 0.357510
1 0.358834
1 0.359914
1 0.360286
2 0.360551
1 0.361760
1 0.362046
1 0.364137
1 0.365553
1 0.365794
1 0.366735
1 0.367194
1 0.367650
1 0.369011
1 0.370430
1 0.370761
1 0.371020
1 0.371479
1 0.372058
1 0.372119
1 0.374753
1 0.375359
1 0.375819
1 0.376737
1 0.376921
1 0.377547
1 0.377569
1 0.377732
1 0.377806
1 0.378327
1 0.379122
1 0.379181
1 0.379499
1 0.383715
1 0.384139
1 0.384238
1 0.385103
1 0.385818
1 0.386657
1 0.387787
1 0.388296
1 0.390150
1 0.390282
1 0.393111
1 0.393970
1 0.395090
1 0.396214
1 0.396475
1 0.396608
1 0.397079
1 0.397656
1 0.397836
1 0.398931
1 0.400461
1 0.400515
1 0.400629
1 0.401940
1 0.403898
1 0.404306
1 0.404919
1 0.406784
1 0.407201
1 0.407271
1 0.407583
1 0.409298
1 0.410146
1 0.411318
1 0.412576
1 0.413012
1 0.413695
1 0.413901
1 0.417375
1 0.417441
1 0.417681
1 0.418531
1 0.419109
1 0.420263
1 0.420324
1 0.421305
1 0.421505
1 0.421635
1 0.423465
1 0.426205
1 0.426595
1 0.427081
1 0.428711
1 0.429516
1 0.431261
1 0.432747
1 0.432990
1 0.433997
1 0.435275
1 0.436690
1 0.437189
1 0.439609
1 0.439850
1 0.440398
1 0.442171
1 0.443365
1 0.443757
1 0.444089
1 0.444860
1 0.448602
1 0.454994
1 0.455169
1 0.455258
1 0.461807
1 0.463313
1 0.466513
1 0.479533
1 0.486696
1 0.503323
1 0.504053
1 0.507429
1 0.507618
1 0.508051
1 0.510492
1 0.511223
1 0.512366
1 0.514697
1 0.515117
1 0.515345
1 0.517042
1 0.519497
1 0.520408
1 0.520468
1 0.525728
1 0.526662
1 0.528536
1 0.529712
1 0.530025
1 0.530406
1 0.533771
1 0.534752
1 0.535374
1 0.537829
1 0.540493
1 0.541364
1 0.541785
1 0.541820
1 0.541902
1 0.544333
1 0.544482
1 0.544844
1 0.544927
1 0.545088
1 0.545492
1 0.545882
1 0.547152
1 0.547610
1 0.547665
1 0.547879
1 0.548337
1 0.551086
1 0.551754
1 0.552506
1 0.554836
1 0.555133
1 0.555442
1 0.556216
1 0.558221
1 0.558599
1 0.560205
1 0.562164
1 0.563897
1 0.564413
1 0.564682
1 0.565055
1 0.566178
1 0.567595
1 0.568246
1 0.571095
1 0.572352
1 0.573948
1 0.574131
1 0.576665
1 0.578242
1 0.580221
1 0.584411
1 0.585938
1 0.586226
1 0.588455
1 0.590562
1 0.590848
1 0.591059
1 0.598302
1 0.598488
1 0.599766
1 0.601746
1 0.605631
1 0.614623
1 0.615973
1 0.622942
1 0.624343
1 0.627114
1 0.627668
1 0.628857
1 0.640063
1 0.640492
1 0.644991
1 0.652265
1 0.653067
1 0.653494
1 0.654011
1 0.657865
1 0.661639
1 0.661726
1 0.666365
1 0.673142
1 0.679340
1 0.680849
1 0.688060
1 0.690348
1 0.695794
1 0.698688
1 0.706262
1 0.714751
1 0.715186
1 0.718608
1 0.720832
1 0.721195
1 0.725316
1 0.725549
1 0.737710
1 0.740999
1 0.760504
1 0.770358
1 0.779210
1 0.785433
1 0.798340
1 0.804350
End Spectral Lines:
