Symbol: Hg
Atomic Number: 80
Atomic Mass: 200.590000
Start Spectral Index: 3
1 127
2 554
3 52
End Spectral Index:
Order of Magnitude: 0.000001
Start Spectral Lines:
3 0.062144
3 0.067968
2 0.078250
2 0.078776
2 0.080247
2 0.082133
3 0.087859
3 0.088648
2 0.089308
2 0.089329
2 0.091582
2 0.092338
2 0.094074
2 0.094263
2 0.096271
2 0.096914
3 0.098889
3 0.100929
2 0.102297
2 0.102757
2 0.102991
2 0.103374
2 0.103469
2 0.103963
2 0.105296
2 0.106278
3 0.106803
2 0.107037
2 0.107334
2 0.107442
2 0.108365
2 0.109680
2 0.110588
2 0.112233
2 0.112805
2 0.113770
2 0.114104
2 0.115679
2 0.116038
3 0.116195
2 0.116220
2 0.120371
2 0.123343
1 0.125057
2 0.125741
1 0.125924
2 0.126454
1 0.126881
2 0.126883
2 0.127679
2 0.127845
2 0.128491
2 0.129467
2 0.130037
2 0.130443
1 0.130775
2 0.130793
2 0.130815
2 0.130914
2 0.131396
2 0.132171
2 0.132304
2 0.133174
2 0.134724
2 0.134778
2 0.134969
2 0.135027
2 0.135218
2 0.135250
2 0.135429
2 0.135698
2 0.135728
2 0.135920
2 0.135993
2 0.136126
2 0.136819
2 0.137257
2 0.137954
2 0.138220
2 0.138981
2 0.139379
2 0.140046
1 0.140262
2 0.140453
2 0.140694
2 0.141442
2 0.141701
2 0.141939
2 0.142999
1 0.143551
2 0.144696
2 0.145948
2 0.147403
2 0.147778
2 0.148656
2 0.149154
2 0.149700
2 0.149777
2 0.150914
2 0.151162
2 0.152750
2 0.153030
2 0.153359
2 0.153914
2 0.153971
2 0.154191
2 0.154518
2 0.156115
2 0.156148
2 0.156660
2 0.157762
2 0.158175
2 0.158467
2 0.158958
2 0.159145
2 0.159393
2 0.159691
2 0.159960
2 0.160154
2 0.160531
2 0.161176
2 0.161408
2 0.161770
2 0.161928
2 0.162155
2 0.162214
2 0.162387
2 0.163409
2 0.163580
2 0.163872
2 0.164044
2 0.164166
2 0.164331
2 0.164451
2 0.164966
2 0.164994
2 0.165361
2 0.165544
2 0.166253
2 0.166385
2 0.166709
2 0.167254
2 0.167438
2 0.167558
2 0.167581
3 0.168140
2 0.168873
2 0.169511
2 0.170261
2 0.170353
2 0.170543
2 0.170712
2 0.170881
2 0.171174
2 0.171288
2 0.171842
2 0.173182
2 0.175411
3 0.175975
1 0.177534
2 0.178760
2 0.179277
2 0.179392
2 0.179865
2 0.179893
2 0.180081
2 0.180616
2 0.180829
2 0.182072
2 0.182386
2 0.182512
2 0.183256
1 0.183287
2 0.183667
2 0.184062
2 0.184120
2 0.184742
2 0.184893
1 0.184949
2 0.185046
2 0.185327
2 0.186072
2 0.186223
2 0.186806
2 0.186923
2 0.186986
2 0.187078
2 0.187096
2 0.187555
2 0.188970
2 0.189209
3 0.189477
2 0.189599
2 0.190012
2 0.190261
2 0.190470
2 0.191594
2 0.192510
2 0.192760
2 0.192904
2 0.193459
2 0.194022
2 0.194227
2 0.194749
2 0.194862
2 0.195307
2 0.195732
2 0.195776
2 0.195934
2 0.196777
2 0.196924
2 0.197348
2 0.197379
2 0.197804
2 0.197880
2 0.198070
2 0.198151
2 0.198784
2 0.199999
2 0.200532
2 0.201099
2 0.201582
2 0.201790
2 0.202295
2 0.202298
2 0.202751
2 0.203022
2 0.203240
2 0.203838
2 0.204293
2 0.205071
2 0.205239
2 0.205348
2 0.205542
2 0.206096
2 0.206732
2 0.211709
2 0.214868
2 0.215921
2 0.217182
2 0.218157
2 0.218384
2 0.218754
2 0.219085
2 0.219143
2 0.220759
2 0.221695
2 0.222471
2 0.222540
2 0.223050
2 0.223072
1 0.224825
2 0.225348
2 0.225617
2 0.225682
2 0.225938
2 0.226099
2 0.226292
2 0.226433
2 0.228841
2 0.228980
2 0.229267
2 0.229688
2 0.230052
2 0.230207
1 0.230277
3 0.231486
1 0.232390
2 0.232795
2 0.234009
1 0.234128
1 0.234615
2 0.234624
1 0.235315
2 0.237741
2 0.237827
1 0.237905
1 0.238073
3 0.238128
2 0.238165
2 0.239088
1 0.240010
1 0.240046
1 0.240122
2 0.240809
2 0.241488
2 0.241703
2 0.241737
2 0.242310
2 0.242766
2 0.242788
3 0.243239
2 0.243674
1 0.244180
1 0.244764
2 0.245955
1 0.246481
2 0.246510
2 0.246835
2 0.246978
2 0.247297
3 0.248131
2 0.248197
1 0.248275
1 0.248347
1 0.248457
3 0.248525
2 0.249282
2 0.249401
2 0.249921
2 0.250009
2 0.251425
2 0.251552
2 0.252244
2 0.252408
2 0.252412
2 0.253087
1 0.253553
1 0.253729
2 0.254610
2 0.254721
2 0.254798
2 0.255360
2 0.255849
1 0.256463
2 0.256515
2 0.257561
1 0.257706
2 0.257818
1 0.257968
2 0.258985
2 0.259061
2 0.259917
2 0.259958
2 0.260387
3 0.261370
3 0.261875
1 0.262597
2 0.262743
2 0.262863
1 0.264057
1 0.265283
2 0.265417
1 0.265447
1 0.265592
2 0.266454
2 0.266947
3 0.267128
2 0.267176
1 0.267571
2 0.269179
2 0.269345
2 0.269917
1 0.269963
1 0.270019
2 0.270325
2 0.270612
2 0.271123
3 0.272524
2 0.272612
2 0.273029
2 0.273123
2 0.273341
2 0.274361
2 0.274400
2 0.275062
1 0.275359
1 0.276052
2 0.276275
2 0.276534
2 0.276828
2 0.276971
3 0.277004
2 0.277208
2 0.277409
2 0.277933
2 0.278272
2 0.278542
2 0.278918
2 0.279125
2 0.279691
2 0.279818
2 0.279955
1 0.280429
1 0.280526
1 0.280617
2 0.280718
1 0.280759
2 0.281025
2 0.281574
2 0.281863
2 0.282740
2 0.282774
2 0.282967
2 0.283033
2 0.283649
2 0.283984
3 0.284560
2 0.284851
2 0.285322
1 0.285778
2 0.287404
2 0.288307
2 0.288344
2 0.289340
1 0.289444
2 0.290350
2 0.290489
2 0.291018
2 0.291710
1 0.292627
2 0.293676
2 0.293989
2 0.294140
2 0.294793
2 0.295599
2 0.296405
2 0.296597
2 0.296723
1 0.296815
2 0.297494
2 0.297599
2 0.298142
2 0.298238
2 0.298746
2 0.299529
2 0.300043
2 0.300526
2 0.300574
2 0.300738
2 0.301204
1 0.302238
1 0.302435
1 0.302649
1 0.302837
2 0.303580
2 0.304550
2 0.304605
2 0.304605
2 0.304939
2 0.305665
2 0.306542
2 0.306858
2 0.307007
2 0.307137
2 0.308845
3 0.309095
2 0.310357
2 0.311710
1 0.312658
1 0.313246
1 0.313275
2 0.314059
2 0.317303
2 0.318867
2 0.319194
2 0.319251
2 0.320231
2 0.320864
2 0.320910
2 0.322874
2 0.325301
2 0.325385
2 0.325696
2 0.325844
2 0.326250
2 0.326498
2 0.326550
2 0.327879
2 0.327905
3 0.328397
2 0.328565
2 0.329031
3 0.331323
2 0.331823
2 0.333096
2 0.333618
2 0.333938
2 0.333967
2 0.333992
1 0.334244
2 0.334945
2 0.336364
2 0.337430
2 0.338608
3 0.338998
2 0.340237
2 0.342577
2 0.342829
2 0.343057
2 0.343790
3 0.345176
2 0.345268
2 0.346016
2 0.348587
2 0.348940
2 0.349486
3 0.350135
2 0.351076
2 0.351163
2 0.351617
2 0.351617
2 0.353361
3 0.353989
2 0.354236
2 0.355042
3 0.355826
2 0.356340
2 0.360396
2 0.360493
2 0.360511
2 0.360679
2 0.360791
2 0.361591
2 0.363340
2 0.364433
2 0.364433
1 0.365119
1 0.365588
1 0.366392
1 0.366432
1 0.370250
1 0.370522
2 0.375282
2 0.377721
2 0.377883
2 0.379081
2 0.379840
1 0.380274
3 0.380459
2 0.380739
2 0.383000
2 0.384035
2 0.388428
1 0.390297
1 0.390747
2 0.391043
2 0.391448
2 0.391542
2 0.392037
2 0.394148
2 0.394679
2 0.394740
2 0.395744
2 0.397553
2 0.398506
2 0.402734
2 0.404160
2 0.404172
1 0.404770
2 0.404888
1 0.407898
1 0.410921
2 0.412161
3 0.412323
3 0.414151
3 0.421793
2 0.427743
2 0.427920
2 0.433831
2 0.433831
1 0.434044
1 0.434872
1 0.435955
2 0.438378
2 0.439986
2 0.440609
2 0.442646
2 0.445564
2 0.445674
2 0.446030
2 0.446513
3 0.447183
2 0.449281
2 0.449409
3 0.455412
2 0.465862
2 0.466152
2 0.468787
2 0.470594
2 0.474362
2 0.476360
3 0.479835
2 0.482691
2 0.482908
2 0.485694
3 0.487121
2 0.488169
1 0.488437
1 0.489128
1 0.491744
2 0.491770
2 0.496327
1 0.497176
3 0.497496
2 0.498196
1 0.498203
2 0.501868
2 0.502701
1 0.502703
2 0.506791
2 0.509998
2 0.510237
1 0.510412
1 0.512207
2 0.512988
1 0.513887
2 0.514773
2 0.516380
2 0.519764
2 0.520622
2 0.520732
3 0.521227
2 0.521783
2 0.522438
2 0.524363
2 0.527906
2 0.528162
1 0.529221
2 0.529472
2 0.529565
2 0.531755
1 0.531863
1 0.535552
2 0.537387
1 0.538613
2 0.542676
1 0.546226
2 0.546681
1 0.555117
2 0.559682
1 0.567722
2 0.567868
3 0.569729
2 0.570017
1 0.577120
1 0.579127
1 0.579227
1 0.580539
2 0.585338
1 0.586087
2 0.587253
2 0.587291
2 0.587320
2 0.587355
1 0.587361
2 0.589058
2 0.592014
2 0.594933
2 0.596317
2 0.598057
2 0.603432
2 0.604272
1 0.607420
2 0.609148
2 0.610178
2 0.610203
2 0.614347
2 0.614814
2 0.614855
2 0.615118
2 0.615371
2 0.615884
2 0.616001
2 0.619600
2 0.619813
3 0.622207
1 0.623606
2 0.624395
2 0.629297
2 0.636196
2 0.639666
3 0.642075
2 0.644233
3 0.650318
2 0.652290
3 0.658608
3 0.661195
2 0.664852
2 0.670388
3 0.671114
1 0.671814
1 0.690922
2 0.694739
1 0.708385
1 0.709382
2 0.734853
2 0.739766
2 0.741389
2 0.741991
2 0.748836
3 0.751953
2 0.756662
2 0.762286
1 0.773095
2 0.777409
3 0.781025
2 0.788320
2 0.794674
3 0.794894
3 0.798671
3 0.815388
2 0.840843
2 0.855102
2 0.952281
2 0.964171
2 0.976223
1 1.014253
1 1.129045
1 1.321358
1 1.343012
1 1.347208
1 1.350939
1 1.357406
1 1.367723
1 1.395438
1 1.529975
1 1.688609
1 1.692479
1 1.694661
1 1.707742
1 1.711460
1 1.712116
1 1.720344
1 1.721795
1 1.733417
1 1.744092
1 1.813531
1 1.970557
1 2.249921
1 2.325921
1 3.215847
1 3.631327
End Spectral Lines:
