Symbol: F
Atomic Number: 9
Atomic Mass: 18.998400
Start Spectral Index: 8
1 114
2 150
3 141
4 75
5 53
6 16
7 24
8 17
End Spectral Index:
Order of Magnitude: 0.000001
Start Spectral Lines:
8 0.001446
8 0.001681
7 0.008673
7 0.008674
8 0.009324
8 0.009324
7 0.009726
7 0.009735
8 0.009867
8 0.009870
8 0.009880
8 0.009889
8 0.010352
7 0.011294
7 0.011298
6 0.012693
7 0.012765
7 0.012780
7 0.012781
5 0.013454
7 0.013470
7 0.013488
5 0.014795
5 0.014800
5 0.015251
5 0.015854
5 0.016227
5 0.016350
5 0.016356
5 0.016598
5 0.016618
4 0.016979
4 0.016984
4 0.017107
5 0.017470
4 0.017637
5 0.017843
5 0.017859
4 0.018152
4 0.018157
5 0.018298
5 0.018672
5 0.018679
5 0.018684
5 0.018697
5 0.018701
4 0.018724
5 0.019057
5 0.019084
5 0.019197
4 0.019639
4 0.019645
4 0.019976
4 0.019980
4 0.019985
4 0.019993
4 0.020000
4 0.020009
4 0.020101
4 0.020106
4 0.020110
4 0.020116
4 0.020122
5 0.020555
4 0.020825
4 0.021385
4 0.021406
4 0.022077
4 0.022694
4 0.022710
3 0.023012
4 0.023322
4 0.023339
4 0.023986
4 0.024002
4 0.024008
4 0.024015
4 0.024028
4 0.024037
4 0.025103
3 0.025572
3 0.025577
3 0.025586
3 0.026171
3 0.026175
3 0.026381
4 0.027023
3 0.027969
3 0.031522
3 0.031554
3 0.031575
7 0.033513
7 0.033526
2 0.037530
2 0.038090
7 0.039169
7 0.039213
2 0.040704
4 0.041965
4 0.042005
4 0.042073
3 0.042951
3 0.043015
3 0.043022
4 0.043076
2 0.043091
2 0.043155
2 0.043564
2 0.045718
3 0.046429
5 0.046437
3 0.046511
5 0.046537
5 0.046598
5 0.046699
2 0.047195
2 0.047200
2 0.047271
2 0.047302
2 0.048460
4 0.049057
4 0.049100
4 0.049738
4 0.049783
4 0.049880
5 0.050616
5 0.050808
3 0.050839
2 0.051364
5 0.051397
5 0.051408
2 0.051494
5 0.052459
5 0.052529
5 0.052630
6 0.053521
2 0.054685
2 0.054787
2 0.054832
2 0.054852
3 0.056769
3 0.056775
4 0.057064
4 0.057130
4 0.057138
4 0.057139
4 0.057265
4 0.057266
2 0.060567
2 0.060629
2 0.060680
2 0.060692
2 0.060747
2 0.060806
3 0.063014
3 0.063020
6 0.064396
6 0.064500
6 0.064608
6 0.064636
6 0.064731
5 0.064767
5 0.064777
5 0.064787
5 0.064797
6 0.064850
6 0.065108
5 0.065403
3 0.065612
3 0.065687
5 0.065723
5 0.065733
3 0.065833
4 0.067612
4 0.067715
4 0.067722
4 0.067893
4 0.067900
4 0.067921
5 0.075704
1 0.078039
1 0.078052
1 0.078238
1 0.079188
1 0.079254
1 0.079442
1 0.080696
1 0.080960
7 0.088310
7 0.089076
1 0.095187
1 0.095483
1 0.095555
1 0.095852
1 0.097240
1 0.097390
1 0.097622
1 0.097651
1 0.097775
5 0.108231
5 0.108839
6 0.110798
6 0.111119
6 0.111836
2 0.112976
6 0.113950
3 0.121903
3 0.126687
3 0.126771
3 0.129754
2 0.132706
2 0.132811
2 0.133359
2 0.134360
2 0.134404
3 0.135992
8 0.139548
2 0.140061
2 0.140714
8 0.141423
8 0.141723
2 0.149309
2 0.149324
2 0.149331
3 0.149893
3 0.150201
3 0.150418
3 0.150479
3 0.150630
3 0.150677
3 0.155302
3 0.155759
3 0.156373
3 0.156554
3 0.162340
3 0.165076
3 0.167039
3 0.167740
2 0.170213
3 0.171699
2 0.174475
2 0.174555
2 0.174739
3 0.177009
3 0.177067
3 0.177293
3 0.177336
3 0.179165
3 0.180303
3 0.180470
3 0.180590
3 0.183930
3 0.183997
3 0.184014
4 0.187564
4 0.188939
3 0.190076
3 0.193944
3 0.193944
3 0.193947
3 0.193947
3 0.202809
3 0.203097
8 0.213680
4 0.217212
3 0.221786
2 0.222627
5 0.222987
2 0.224331
5 0.225342
4 0.229900
5 0.245138
4 0.245232
3 0.245281
4 0.245766
5 0.246203
3 0.246560
3 0.247104
3 0.247948
3 0.248512
3 0.254353
2 0.255688
3 0.258081
3 0.258458
3 0.259401
3 0.259631
3 0.260006
3 0.262579
3 0.263048
3 0.265723
5 0.269478
5 0.270310
5 0.270476
5 0.270797
3 0.275636
3 0.276045
3 0.278897
3 0.281228
4 0.282157
4 0.282696
3 0.283482
3 0.283646
3 0.286117
3 0.286370
2 0.287224
3 0.288843
3 0.289030
3 0.290615
3 0.291414
3 0.291719
3 0.293056
3 0.293056
3 0.293335
3 0.293364
3 0.293364
3 0.299515
3 0.299808
3 0.299840
3 0.300034
3 0.303541
3 0.304013
3 0.304063
3 0.304369
3 0.305003
2 0.306088
3 0.311451
3 0.311660
3 0.312245
3 0.312569
3 0.313513
3 0.314369
3 0.314645
3 0.314790
2 0.315440
3 0.315533
3 0.315704
3 0.316680
3 0.317509
3 0.317568
2 0.320369
3 0.321491
7 0.324750
2 0.326502
7 0.327790
2 0.341563
2 0.341743
2 0.341778
2 0.341798
2 0.347395
2 0.347430
2 0.347577
2 0.350239
2 0.350245
2 0.350257
2 0.350384
2 0.350396
2 0.350411
2 0.350637
2 0.350652
2 0.350663
2 0.352390
4 0.353319
2 0.353620
2 0.353788
2 0.353952
2 0.354278
2 0.354543
2 0.354707
2 0.359154
1 0.359513
2 0.359972
2 0.360242
2 0.360387
2 0.364192
2 0.364200
2 0.364290
2 0.364298
2 0.364307
2 0.364372
2 0.364381
1 0.366921
2 0.370558
2 0.371141
2 0.374063
2 0.380691
2 0.384818
2 0.385108
2 0.385276
1 0.389958
2 0.389993
2 0.390304
2 0.390493
1 0.393180
1 0.393537
1 0.394968
4 0.396225
2 0.397316
2 0.397379
2 0.397590
4 0.399805
4 0.399805
2 0.402587
2 0.402615
2 0.402663
4 0.406105
4 0.406105
2 0.408506
2 0.410423
2 0.410438
2 0.410467
2 0.410487
2 0.410503
2 0.410517
2 0.411032
2 0.411388
2 0.411413
2 0.411770
2 0.411815
2 0.411991
2 0.412037
2 0.415892
2 0.420834
2 0.422635
2 0.424531
2 0.424743
2 0.424759
2 0.424779
2 0.424797
2 0.424804
6 0.426400
2 0.427656
2 0.427873
2 0.428013
2 0.430038
3 0.442154
3 0.442859
3 0.443356
2 0.444778
2 0.444794
2 0.444797
2 0.444836
2 0.444840
2 0.444844
3 0.448125
2 0.473570
2 0.479079
2 0.479079
2 0.486075
2 0.487035
2 0.487035
2 0.490593
2 0.493464
1 0.496203
2 0.500340
3 0.501394
3 0.511241
2 0.517469
1 0.523187
1 0.528048
1 0.554206
1 0.555397
1 0.557888
2 0.559082
1 0.562562
1 0.562849
1 0.566072
1 0.566910
1 0.567324
1 0.569072
1 0.570240
1 0.570889
3 0.572280
3 0.572280
3 0.572310
3 0.573450
3 0.573450
3 0.573480
3 0.573480
3 0.575477
3 0.576280
1 0.595180
1 0.596084
1 0.596693
1 0.599609
1 0.601750
1 0.603971
1 0.604921
1 0.608179
3 0.609351
3 0.612720
1 0.615146
1 0.621259
3 0.623529
1 0.624138
2 0.624963
1 0.635027
3 0.636481
1 0.641542
1 0.657150
1 0.658221
1 0.665225
1 0.669233
1 0.671013
1 0.677585
1 0.679741
1 0.683615
1 0.685792
1 0.687212
1 0.690437
1 0.691172
1 0.696827
1 0.703941
1 0.712985
2 0.718188
1 0.720435
2 0.721378
1 0.731104
1 0.731303
1 0.731632
1 0.733398
3 0.733879
3 0.735697
1 0.740072
1 0.742769
1 0.748478
1 0.749121
1 0.751699
1 0.755432
1 0.757547
1 0.760926
1 0.775682
1 0.780236
1 0.788135
1 0.790076
1 0.793849
7 0.795000
1 0.795851
2 0.801821
7 0.802500
1 0.804314
1 0.807774
1 0.807974
8 0.811030
1 0.812879
1 0.813150
1 0.816175
1 0.818159
1 0.819349
1 0.821089
1 0.821699
1 0.823303
1 0.823445
1 0.827689
1 0.830086
1 0.830468
1 0.881000
1 0.890336
1 0.891523
1 0.902797
1 0.904458
1 0.918120
1 0.943626
1 0.950791
7 0.953200
8 0.964320
8 0.964320
1 0.966469
7 0.971700
1 0.973701
7 0.979900
1 0.982480
1 0.990537
2 1.005073
1 1.028827
1 1.086529
5 13.431800
8 14.492000
4 16.286600
6 17.330999
2 20.412001
1 24.746300
4 25.773001
4 25.773001
2 29.325001
2 29.325001
6 38.459999
4 44.247002
2 67.150002
3 279.299988
3 279.299988
End Spectral Lines:
